date	time	group	subject	build	blocknum	trialnum	blockcode	trialcode	pretrialpause	posttrialpause	windowcenter	trialduration	trialtimeout	blocktimeout	response	correct	latency	inwindow	stimulusnumber1	stimulusitem1	stimulusvpos1	stimulushpos1	stimulusonset1	stimulusnumber2	stimulusitem2	stimulusvpos2	stimulushpos2	stimulusonset2
111516	23:21:08	1	1	4.0.9.0	2	1	redblueblk	bluetrial	500	0	0	0	0	0	33	0	3289	0	1	+	50pct	50pct	0	2	蓝	50pct	50pct	500
111516	23:21:08	1	1	4.0.9.0	2	2	redblueblk	bluetrial	500	0	0	0	0	0	36	1	785	0	1	+	50pct	50pct	0	1	红	50pct	50pct	499
111516	23:21:08	1	1	4.0.9.0	2	3	redblueblk	redtrial	500	0	0	0	0	0	36	0	1087	0	1	+	50pct	50pct	0	1	红	50pct	50pct	499
111516	23:21:08	1	1	4.0.9.0	2	4	redblueblk	bluetrial	500	0	0	0	0	0	Ctrl+'Q'	1	4769	0	1	+	50pct	50pct	0	1	红	50pct	50pct	499
111516	23:22:03	1	1	4.0.9.0	2	1	redblueblk	redtrial	500	0	0	0	0	0	33	1	41	0	1	+	50pct	50pct	0	2	蓝	50pct	50pct	499
111516	23:22:03	1	1	4.0.9.0	2	2	redblueblk	bluetrial	500	0	0	0	0	0	36	1	40	0	1	+	50pct	50pct	0	2	蓝	50pct	50pct	499
111516	23:22:03	1	1	4.0.9.0	2	3	redblueblk	redtrial	500	0	0	0	0	0	33	1	63	0	1	+	50pct	50pct	0	1	红	50pct	50pct	500
111516	23:22:03	1	1	4.0.9.0	2	4	redblueblk	redtrial	500	0	0	0	0	0	Ctrl+'Q'	1	0	0	1	+	50pct	50pct	0	2	蓝	50pct	50pct	499
111516	23:22:12	1	1	4.0.9.0	2	1	redblueblk	redtrial	500	0	0	0	0	0	Ctrl+'Q'	1	1462	0	1	+	50pct	50pct	0	2	蓝	50pct	50pct	499
111516	23:23:05	1	1	4.0.9.0	2	1	redblueblk	bluetrial	500	0	0	0	0	0	36	1	52	0	1	+	50pct	50pct	0	1	红	50pct	50pct	499
111516	23:23:05	1	1	4.0.9.0	2	2	redblueblk	redtrial	500	0	0	0	0	0	Ctrl+'Q'	1	0	0	1	+	50pct	50pct	0	2	蓝	50pct	50pct	499
111516	23:23:38	1	1	4.0.9.0	2	1	redblueblk	redtrial	500	0	0	0	0	0	33	1	56	0	1	+	50pct	50pct	0	1	红	50pct	50pct	499
111516	23:23:38	1	1	4.0.9.0	2	2	redblueblk	redtrial	500	0	0	0	0	0	33	1	48	0	1	+	50pct	50pct	0	2	蓝	50pct	50pct	499
111516	23:23:38	1	1	4.0.9.0	2	3	redblueblk	redtrial	500	0	0	0	0	0	Ctrl+'Q'	1	0	0	1	+	50pct	50pct	0	2	蓝	50pct	50pct	499
111516	23:23:46	1	1	4.0.9.0	2	1	redblueblk	redtrial	500	0	0	0	0	0	Ctrl+'Q'	1	1344	0	1	+	50pct	50pct	0	2	蓝	50pct	50pct	499
111516	23:25:03	1	1	4.0.9.0	2	1	redblueblk	redtrial	500	0	0	0	0	0	Ctrl+'Q'	1	0	0	1	+	50pct	50pct	0	2	蓝	50pct	50pct	499
111516	23:25:22	1	1	4.0.9.0	2	1	redblueblk	redtrial	500	0	0	0	0	0	Ctrl+'Q'	1	0	0	1	+	50pct	50pct	0	2	蓝	50pct	50pct	499
111516	23:26:14	1	1	4.0.9.0	2	1	redblueblk	redtrial	500	0	0	0	0	0	33	1	2975	0	1	+	50pct	50pct	2	2	蓝	50pct	50pct	499
111516	23:26:14	1	1	4.0.9.0	2	2	redblueblk	redtrial	500	0	0	0	0	0	36	0	760	0	1	+	50pct	50pct	0	1	红	50pct	50pct	499
111516	23:26:14	1	1	4.0.9.0	2	3	redblueblk	bluetrial	500	0	0	0	0	0	33	0	491	0	1	+	50pct	50pct	0	2	蓝	50pct	50pct	499
111516	23:26:14	1	1	4.0.9.0	2	4	redblueblk	redtrial	500	0	0	0	0	0	33	1	791	0	1	+	50pct	50pct	0	1	红	50pct	50pct	499
111516	23:26:14	1	1	4.0.9.0	2	5	redblueblk	bluetrial	500	0	0	0	0	0	36	1	818	0	1	+	50pct	50pct	0	1	红	50pct	50pct	499
111516	23:26:14	1	1	4.0.9.0	2	6	redblueblk	bluetrial	500	0	0	0	0	0	33	0	821	0	1	+	50pct	50pct	0	1	红	50pct	50pct	499
111516	23:26:14	1	1	4.0.9.0	2	7	redblueblk	bluetrial	500	0	0	0	0	0	Ctrl+'Q'	1	1121	0	1	+	50pct	50pct	8	2	蓝	50pct	50pct	500
