date	time	group	subject	build	blocknum	trialnum	blockcode	trialcode	pretrialpause	posttrialpause	windowcenter	trialduration	trialtimeout	blocktimeout	response	correct	latency	inwindow	stimulusnumber1	stimulusitem1	stimulusvpos1	stimulushpos1	stimulusonset1	stimulusnumber2	stimulusitem2	stimulusvpos2	stimulushpos2	stimulusonset2
111516	15:58:30	1	1	4.0.9.0	2	1	redbluegreenyellowblk	bluewords	500	0	0	0	0	0	36	1	911	0	1	红	50pct	50pct	1	0	0	0	0	0
111516	15:58:30	1	1	4.0.9.0	2	2	redbluegreenyellowblk	yellowwords	500	0	0	0	0	0	36	0	1528	0	1	红	50pct	50pct	1	0	0	0	0	0
111516	15:58:30	1	1	4.0.9.0	2	3	redbluegreenyellowblk	yellowwords	500	0	0	0	0	0	36	0	437	0	2	黄	50pct	50pct	1	0	0	0	0	0
111516	15:58:30	1	1	4.0.9.0	2	4	redbluegreenyellowblk	yellowwords	500	0	0	0	0	0	33	0	271	0	4	绿	50pct	50pct	0	0	0	0	0	0
111516	15:58:30	1	1	4.0.9.0	2	5	redbluegreenyellowblk	redwords	500	0	0	0	0	0	36	0	269	0	2	黄	50pct	50pct	0	0	0	0	0	0
111516	15:58:30	1	1	4.0.9.0	2	6	redbluegreenyellowblk	redwords	500	0	0	0	0	0	33	1	190	0	4	绿	50pct	50pct	1	0	0	0	0	0
111516	15:58:30	1	1	4.0.9.0	2	7	redbluegreenyellowblk	redwords	500	0	0	0	0	0	36	0	161	0	1	红	50pct	50pct	0	0	0	0	0	0
111516	15:58:30	1	1	4.0.9.0	2	8	redbluegreenyellowblk	bluewords	500	0	0	0	0	0	33	0	185	0	4	绿	50pct	50pct	2	0	0	0	0	0
111516	15:58:30	1	1	4.0.9.0	2	9	redbluegreenyellowblk	yellowwords	500	0	0	0	0	0	36	0	287	0	3	蓝	50pct	50pct	1	0	0	0	0	0
111516	15:58:30	1	1	4.0.9.0	2	10	redbluegreenyellowblk	bluewords	500	0	0	0	0	0	33	0	132	0	2	黄	50pct	50pct	1	0	0	0	0	0
111516	15:58:30	1	1	4.0.9.0	2	11	redbluegreenyellowblk	bluewords	500	0	0	0	0	0	36	1	123	0	3	蓝	50pct	50pct	0	0	0	0	0	0
111516	15:58:30	1	1	4.0.9.0	2	12	redbluegreenyellowblk	greenwords	500	0	0	0	0	0	33	0	2919	0	4	绿	50pct	50pct	0	0	0	0	0	0
111516	15:58:30	1	1	4.0.9.0	2	13	redbluegreenyellowblk	greenwords	500	0	0	0	0	0	34	0	489	0	1	红	50pct	50pct	0	0	0	0	0	0
111516	15:58:30	1	1	4.0.9.0	2	14	redbluegreenyellowblk	greenwords	500	0	0	0	0	0	35	1	260	0	2	黄	50pct	50pct	0	0	0	0	0	0
111516	15:58:30	1	1	4.0.9.0	2	15	redbluegreenyellowblk	redwords	500	0	0	0	0	0	33	1	584	0	3	蓝	50pct	50pct	1	0	0	0	0	0
111516	15:58:30	1	1	4.0.9.0	2	16	redbluegreenyellowblk	greenwords	500	0	0	0	0	0	35	1	288	0	3	蓝	50pct	50pct	1	0	0	0	0	0
111516	16:01:31	1	1	4.0.9.0	2	1	redbluegreenyellowblk	yellowwords	500	0	0	0	0	0	33	0	1967	0	1	红	50pct	50pct	1	0	0	0	0	0
111516	16:01:31	1	1	4.0.9.0	2	2	redbluegreenyellowblk	redwords	500	0	0	0	0	0	33	1	2453	0	2	黄	50pct	50pct	1	0	0	0	0	0
111516	16:01:31	1	1	4.0.9.0	2	3	redbluegreenyellowblk	bluewords	500	0	0	0	0	0	33	0	409	0	4	绿	50pct	50pct	0	0	0	0	0	0
111516	16:01:31	1	1	4.0.9.0	2	4	redbluegreenyellowblk	greenwords	500	0	0	0	0	0	33	0	356	0	4	绿	50pct	50pct	1	0	0	0	0	0
111516	16:01:31	1	1	4.0.9.0	2	5	redbluegreenyellowblk	bluewords	500	0	0	0	0	0	35	0	101	0	2	黄	50pct	50pct	0	0	0	0	0	0
111516	16:01:31	1	1	4.0.9.0	2	6	redbluegreenyellowblk	redwords	500	0	0	0	0	0	35	0	216	0	4	绿	50pct	50pct	0	0	0	0	0	0
111516	16:01:31	1	1	4.0.9.0	2	7	redbluegreenyellowblk	yellowwords	500	0	0	0	0	0	35	0	150	0	4	绿	50pct	50pct	0	0	0	0	0	0
111516	16:01:31	1	1	4.0.9.0	2	8	redbluegreenyellowblk	redwords	500	0	0	0	0	0	35	0	411	0	3	蓝	50pct	50pct	0	0	0	0	0	0
111516	16:01:31	1	1	4.0.9.0	2	9	redbluegreenyellowblk	redwords	500	0	0	0	0	0	35	0	315	0	1	红	50pct	50pct	1	0	0	0	0	0
111516	16:01:31	1	1	4.0.9.0	2	10	redbluegreenyellowblk	bluewords	500	0	0	0	0	0	35	0	255	0	1	红	50pct	50pct	1	0	0	0	0	0
111516	16:01:31	1	1	4.0.9.0	2	11	redbluegreenyellowblk	yellowwords	500	0	0	0	0	0	35	0	54	0	2	黄	50pct	50pct	1	0	0	0	0	0
111516	16:01:31	1	1	4.0.9.0	2	12	redbluegreenyellowblk	greenwords	500	0	0	0	0	0	35	1	27	0	2	黄	50pct	50pct	3	0	0	0	0	0
111516	16:01:31	1	1	4.0.9.0	2	13	redbluegreenyellowblk	greenwords	500	0	0	0	0	0	33	0	228	0	3	蓝	50pct	50pct	1	0	0	0	0	0
111516	16:01:31	1	1	4.0.9.0	2	14	redbluegreenyellowblk	greenwords	500	0	0	0	0	0	34	0	174	0	1	红	50pct	50pct	1	0	0	0	0	0
111516	16:01:31	1	1	4.0.9.0	2	15	redbluegreenyellowblk	yellowwords	500	0	0	0	0	0	33	0	151	0	3	蓝	50pct	50pct	1	0	0	0	0	0
111516	16:01:31	1	1	4.0.9.0	2	16	redbluegreenyellowblk	bluewords	500	0	0	0	0	0	34	0	109	0	3	蓝	50pct	50pct	1	0	0	0	0	0
111516	16:18:15	1	1	4.0.9.0	2	1	redbluegreenyellowblk	greenwords	500	0	0	0	0	0	33	0	2325	0	1	红	50pct	50pct	2	0	0	0	0	0
111516	16:18:15	1	1	4.0.9.0	2	2	redbluegreenyellowblk	bluewords	500	0	0	0	0	0	33	0	315	0	3	蓝	50pct	50pct	1	0	0	0	0	0
111516	16:18:15	1	1	4.0.9.0	2	3	redbluegreenyellowblk	greenwords	500	0	0	0	0	0	35	1	1403	0	4	绿	50pct	50pct	1	0	0	0	0	0
111516	16:18:15	1	1	4.0.9.0	2	4	redbluegreenyellowblk	redwords	500	0	0	0	0	0	33	1	229	0	3	蓝	50pct	50pct	1	0	0	0	0	0
111516	16:18:15	1	1	4.0.9.0	2	5	redbluegreenyellowblk	bluewords	500	0	0	0	0	0	35	0	287	0	2	黄	50pct	50pct	1	0	0	0	0	0
111516	16:18:15	1	1	4.0.9.0	2	6	redbluegreenyellowblk	yellowwords	500	0	0	0	0	0	34	1	163	0	2	黄	50pct	50pct	1	0	0	0	0	0
111516	16:18:15	1	1	4.0.9.0	2	7	redbluegreenyellowblk	greenwords	500	0	0	0	0	0	34	0	443	0	3	蓝	50pct	50pct	2	0	0	0	0	0
111516	16:18:15	1	1	4.0.9.0	2	8	redbluegreenyellowblk	redwords	500	0	0	0	0	0	34	0	489	0	2	黄	50pct	50pct	2	0	0	0	0	0
111516	16:18:15	1	1	4.0.9.0	2	9	redbluegreenyellowblk	yellowwords	500	0	0	0	0	0	34	1	285	0	3	蓝	50pct	50pct	1	0	0	0	0	0
111516	16:18:15	1	1	4.0.9.0	2	10	redbluegreenyellowblk	yellowwords	500	0	0	0	0	0	34	1	250	0	1	红	50pct	50pct	1	0	0	0	0	0
111516	16:18:15	1	1	4.0.9.0	2	11	redbluegreenyellowblk	redwords	500	0	0	0	0	0	34	0	323	0	4	绿	50pct	50pct	2	0	0	0	0	0
111516	16:18:15	1	1	4.0.9.0	2	12	redbluegreenyellowblk	greenwords	500	0	0	0	0	0	33	0	259	0	2	黄	50pct	50pct	1	0	0	0	0	0
111516	16:18:15	1	1	4.0.9.0	2	13	redbluegreenyellowblk	redwords	500	0	0	0	0	0	34	0	162	0	1	红	50pct	50pct	2	0	0	0	0	0
111516	16:18:15	1	1	4.0.9.0	2	14	redbluegreenyellowblk	bluewords	500	0	0	0	0	0	33	0	131	0	4	绿	50pct	50pct	1	0	0	0	0	0
111516	16:18:15	1	1	4.0.9.0	2	15	redbluegreenyellowblk	yellowwords	500	0	0	0	0	0	34	1	102	0	4	绿	50pct	50pct	2	0	0	0	0	0
111516	16:18:15	1	1	4.0.9.0	2	16	redbluegreenyellowblk	bluewords	500	0	0	0	0	0	33	0	145	0	1	红	50pct	50pct	2	0	0	0	0	0
