date	time	group	subject	build	blocknum	trialnum	blockcode	trialcode	pretrialpause	posttrialpause	windowcenter	trialduration	trialtimeout	blocktimeout	response	correct	latency	inwindow	stimulusnumber1	stimulusitem1	stimulusvpos1	stimulushpos1	stimulusonset1
110816	12:30:14	1	1	4.0.9.0	1	1	oddevenblk	eventrial	500	0	0	0	0	0	255	1	55	0	3	6	50pct	50pct	-13
110816	12:30:14	1	1	4.0.9.0	1	2	oddevenblk	oddtrial	500	0	0	0	0	0	255	1	37	0	4	7	50pct	50pct	-16
110816	12:30:14	1	1	4.0.9.0	1	3	oddevenblk	oddtrial	500	0	0	0	0	0	255	1	50	0	2	3	50pct	50pct	-16
110816	12:30:14	1	1	4.0.9.0	1	4	oddevenblk	oddtrial	500	0	0	0	0	0	255	1	51	0	1	1	50pct	50pct	-16
110816	12:30:14	1	1	4.0.9.0	1	5	oddevenblk	oddtrial	500	0	0	0	0	0	255	1	33	0	3	5	50pct	50pct	-16
110816	12:30:14	1	1	4.0.9.0	1	6	oddevenblk	eventrial	500	0	0	0	0	0	255	1	38	0	2	4	50pct	50pct	-16
110816	12:30:14	1	1	4.0.9.0	1	7	oddevenblk	eventrial	500	0	0	0	0	0	255	1	73	0	4	8	50pct	50pct	-16
110816	12:30:14	1	1	4.0.9.0	1	8	oddevenblk	eventrial	500	0	0	0	0	0	255	1	47	0	1	2	50pct	50pct	-16
110816	12:30:14	1	1	4.0.9.0	1	9	oddevenblk	eventrial	500	0	0	0	0	0	255	1	53	0	3	6	50pct	50pct	-16
110816	12:30:14	1	1	4.0.9.0	1	10	oddevenblk	oddtrial	500	0	0	0	0	0	255	1	29	0	4	7	50pct	50pct	-16
110816	12:30:14	1	1	4.0.9.0	1	11	oddevenblk	eventrial	500	0	0	0	0	0	255	1	55	0	2	4	50pct	50pct	-16
110816	12:30:14	1	1	4.0.9.0	1	12	oddevenblk	eventrial	500	0	0	0	0	0	255	1	39	0	1	2	50pct	50pct	-16
110816	12:30:14	1	1	4.0.9.0	1	13	oddevenblk	oddtrial	500	0	0	0	0	0	255	1	46	0	2	3	50pct	50pct	-16
110816	12:30:14	1	1	4.0.9.0	1	14	oddevenblk	oddtrial	500	0	0	0	0	0	255	1	48	0	3	5	50pct	50pct	-16
110816	12:30:14	1	1	4.0.9.0	1	15	oddevenblk	oddtrial	500	0	0	0	0	0	255	1	35	0	1	1	50pct	50pct	-16
110816	12:30:14	1	1	4.0.9.0	1	16	oddevenblk	eventrial	500	0	0	0	0	0	255	1	47	0	4	8	50pct	50pct	-16
110816	12:32:01	1	1	4.0.9.0	1	1	oddevenblk	eventrial	500	0	0	0	0	0	255	1	31	0	4	8	50pct	50pct	-13
110816	12:32:01	1	1	4.0.9.0	1	2	oddevenblk	oddtrial	500	0	0	0	0	0	255	1	28	0	4	7	50pct	50pct	-16
110816	12:32:01	1	1	4.0.9.0	1	3	oddevenblk	eventrial	500	0	0	0	0	0	255	1	42	0	2	4	50pct	50pct	-16
110816	12:32:01	1	1	4.0.9.0	1	4	oddevenblk	oddtrial	500	0	0	0	0	0	255	1	49	0	1	1	50pct	50pct	-16
110816	12:32:01	1	1	4.0.9.0	1	5	oddevenblk	oddtrial	500	0	0	0	0	0	255	1	25	0	2	3	50pct	50pct	-16
110816	12:32:01	1	1	4.0.9.0	1	6	oddevenblk	eventrial	500	0	0	0	0	0	255	1	53	0	1	2	50pct	50pct	-16
110816	12:32:01	1	1	4.0.9.0	1	7	oddevenblk	oddtrial	500	0	0	0	0	0	255	1	27	0	3	5	50pct	50pct	-16
110816	12:32:01	1	1	4.0.9.0	1	8	oddevenblk	eventrial	500	0	0	0	0	0	255	1	41	0	3	6	50pct	50pct	-16
110816	12:32:01	1	1	4.0.9.0	1	9	oddevenblk	oddtrial	500	0	0	0	0	0	255	1	26	0	2	3	50pct	50pct	-16
110816	12:32:01	1	1	4.0.9.0	1	10	oddevenblk	eventrial	500	0	0	0	0	0	255	1	38	0	2	4	50pct	50pct	-16
110816	12:32:01	1	1	4.0.9.0	1	11	oddevenblk	eventrial	500	0	0	0	0	0	255	1	24	0	4	8	50pct	50pct	-16
110816	12:32:01	1	1	4.0.9.0	1	12	oddevenblk	eventrial	500	0	0	0	0	0	255	1	48	0	3	6	50pct	50pct	-16
110816	12:32:01	1	1	4.0.9.0	1	13	oddevenblk	oddtrial	500	0	0	0	0	0	255	1	37	0	1	1	50pct	50pct	-16
110816	12:32:01	1	1	4.0.9.0	1	14	oddevenblk	oddtrial	500	0	0	0	0	0	255	1	50	0	4	7	50pct	50pct	-16
110816	12:32:01	1	1	4.0.9.0	1	15	oddevenblk	oddtrial	500	0	0	0	0	0	255	1	37	0	3	5	50pct	50pct	-16
110816	12:32:01	1	1	4.0.9.0	1	16	oddevenblk	eventrial	500	0	0	0	0	0	255	1	12	0	1	2	50pct	50pct	-16
