date	time	group	subject	build	blocknum	trialnum	blockcode	trialcode	pretrialpause	posttrialpause	windowcenter	trialduration	trialtimeout	blocktimeout	response	correct	latency	inwindow	stimulusnumber1	stimulusitem1	stimulusvpos1	stimulushpos1	stimulusonset1
110816	15:18:10	1	1	4.0.9.0	1	1	oddevenblk	oddnumbertrial	500	0	0	0	0	0	33	1	40	0	4	7	50pct	50pct	7
110816	15:18:10	1	1	4.0.9.0	1	2	oddevenblk	oddnumbertrial	500	0	0	0	0	0	33	1	26	0	2	3	50pct	50pct	0
110816	15:18:10	1	1	4.0.9.0	1	3	oddevenblk	oddnumbertrial	500	0	0	0	0	0	33	1	38	0	3	5	50pct	50pct	0
110816	15:18:10	1	1	4.0.9.0	1	4	oddevenblk	evennumbertrial	500	0	0	0	0	0	33	0	52	0	2	4	50pct	50pct	0
110816	15:18:10	1	1	4.0.9.0	1	5	oddevenblk	evennumbertrial	500	0	0	0	0	0	36	1	22	0	1	2	50pct	50pct	0
110816	15:18:10	1	1	4.0.9.0	1	6	oddevenblk	oddnumbertrial	500	0	0	0	0	0	33	1	41	0	1	1	50pct	50pct	0
110816	15:18:10	1	1	4.0.9.0	1	7	oddevenblk	oddnumbertrial	500	0	0	0	0	0	33	1	45	0	3	5	50pct	50pct	0
110816	15:18:10	1	1	4.0.9.0	1	8	oddevenblk	oddnumbertrial	500	0	0	0	0	0	33	1	51	0	2	3	50pct	50pct	0
110816	15:18:10	1	1	4.0.9.0	1	9	oddevenblk	evennumbertrial	500	0	0	0	0	0	36	1	30	0	4	8	50pct	50pct	0
110816	15:18:10	1	1	4.0.9.0	1	10	oddevenblk	evennumbertrial	500	0	0	0	0	0	33	0	55	0	3	6	50pct	50pct	0
110816	15:18:10	1	1	4.0.9.0	1	11	oddevenblk	evennumbertrial	500	0	0	0	0	0	36	1	34	0	4	8	50pct	50pct	0
110816	15:18:10	1	1	4.0.9.0	1	12	oddevenblk	evennumbertrial	500	0	0	0	0	0	33	0	36	0	2	4	50pct	50pct	0
110816	15:18:10	1	1	4.0.9.0	1	13	oddevenblk	oddnumbertrial	500	0	0	0	0	0	33	1	42	0	4	7	50pct	50pct	0
110816	15:18:10	1	1	4.0.9.0	1	14	oddevenblk	evennumbertrial	500	0	0	0	0	0	36	1	48	0	1	2	50pct	50pct	0
110816	15:18:10	1	1	4.0.9.0	1	15	oddevenblk	oddnumbertrial	500	0	0	0	0	0	36	0	63	0	1	1	50pct	50pct	0
110816	15:18:10	1	1	4.0.9.0	1	16	oddevenblk	evennumbertrial	500	0	0	0	0	0	36	1	54	0	3	6	50pct	50pct	0
110816	15:18:31	1	1	4.0.9.0	1	1	oddevenblk	evennumbertrial	500	0	0	0	0	0	36	1	2017	0	4	8	50pct	50pct	5
110816	15:18:31	1	1	4.0.9.0	1	2	oddevenblk	oddnumbertrial	500	0	0	0	0	0	33	1	1080	0	3	5	50pct	50pct	0
110816	15:18:31	1	1	4.0.9.0	1	3	oddevenblk	oddnumbertrial	500	0	0	0	0	0	33	1	621	0	2	3	50pct	50pct	0
110816	15:18:31	1	1	4.0.9.0	1	4	oddevenblk	evennumbertrial	500	0	0	0	0	0	36	1	984	0	1	2	50pct	50pct	0
110816	15:18:31	1	1	4.0.9.0	1	5	oddevenblk	evennumbertrial	500	0	0	0	0	0	36	1	1422	0	3	6	50pct	50pct	1
110816	15:18:31	1	1	4.0.9.0	1	6	oddevenblk	oddnumbertrial	500	0	0	0	0	0	33	1	649	0	4	7	50pct	50pct	1
110816	15:18:31	1	1	4.0.9.0	1	7	oddevenblk	evennumbertrial	500	0	0	0	0	0	33	0	540	0	2	4	50pct	50pct	0
110816	15:18:31	1	1	4.0.9.0	1	8	oddevenblk	evennumbertrial	500	0	0	0	0	0	36	1	609	0	2	4	50pct	50pct	0
110816	15:18:31	1	1	4.0.9.0	1	9	oddevenblk	oddnumbertrial	500	0	0	0	0	0	33	1	667	0	1	1	50pct	50pct	0
110816	15:18:31	1	1	4.0.9.0	1	10	oddevenblk	evennumbertrial	500	0	0	0	0	0	36	1	562	0	3	6	50pct	50pct	0
110816	15:18:31	1	1	4.0.9.0	1	11	oddevenblk	oddnumbertrial	500	0	0	0	0	0	33	1	635	0	3	5	50pct	50pct	0
110816	15:18:31	1	1	4.0.9.0	1	12	oddevenblk	oddnumbertrial	500	0	0	0	0	0	33	1	995	0	4	7	50pct	50pct	0
110816	15:18:31	1	1	4.0.9.0	1	13	oddevenblk	evennumbertrial	500	0	0	0	0	0	36	1	676	0	1	2	50pct	50pct	0
110816	15:18:31	1	1	4.0.9.0	1	14	oddevenblk	oddnumbertrial	500	0	0	0	0	0	33	1	825	0	2	3	50pct	50pct	1
110816	15:18:31	1	1	4.0.9.0	1	15	oddevenblk	oddnumbertrial	500	0	0	0	0	0	33	1	753	0	1	1	50pct	50pct	0
110816	15:18:31	1	1	4.0.9.0	1	16	oddevenblk	evennumbertrial	500	0	0	0	0	0	36	1	829	0	4	8	50pct	50pct	0
