date	time	group	subject	build	blocknum	trialnum	blockcode	trialcode	pretrialpause	posttrialpause	windowcenter	trialduration	trialtimeout	blocktimeout	response	correct	latency	inwindow	stimulusnumber1	stimulusitem1	stimulusvpos1	stimulushpos1	stimulusonset1	stimulusnumber2	stimulusitem2	stimulusvpos2	stimulushpos2	stimulusonset2
110816	15:51:19	1	1	4.0.9.0	2	1	oddevenblk	evennumbertrial	500	0	0	0	0	0	33	0	46	0	1	+	50pct	50pct	0	1	2	50pct	50pct	8316
110816	15:51:19	1	1	4.0.9.0	2	2	oddevenblk	oddnumbertrial	500	0	0	0	0	0	Ctrl+'Q'	1	0	0	1	+	50pct	50pct	0	4	7	50pct	50pct	8316
110816	15:53:49	1	1	4.0.9.0	2	1	oddevenblk	evennumbertrial	500	0	0	0	0	0	36	1	23	0	1	+	50pct	50pct	0	4	8	50pct	50pct	8316
110816	15:53:49	1	1	4.0.9.0	2	2	oddevenblk	oddnumbertrial	500	0	0	0	0	0	36	0	35	0	1	+	50pct	50pct	0	3	5	50pct	50pct	8316
110816	15:53:49	1	1	4.0.9.0	2	3	oddevenblk	oddnumbertrial	500	0	0	0	0	0	33	1	21	0	1	+	50pct	50pct	0	4	7	50pct	50pct	8316
110816	15:53:49	1	1	4.0.9.0	2	4	oddevenblk	oddnumbertrial	500	0	0	0	0	0	36	0	32	0	1	+	50pct	50pct	0	2	3	50pct	50pct	8316
110816	15:53:49	1	1	4.0.9.0	2	5	oddevenblk	evennumbertrial	500	0	0	0	0	0	Ctrl+'Q'	1	0	0	1	+	50pct	50pct	0	3	6	50pct	50pct	8316
110816	15:54:43	1	1	4.0.9.0	2	1	oddevenblk	evennumbertrial	500	0	0	0	0	0	33	0	490	0	1	+	50pct	50pct	0	3	6	50pct	50pct	8316
110816	15:54:43	1	1	4.0.9.0	2	2	oddevenblk	oddnumbertrial	500	0	0	0	0	0	36	0	406	0	1	+	50pct	50pct	0	2	3	50pct	50pct	8316
110816	15:54:43	1	1	4.0.9.0	2	3	oddevenblk	oddnumbertrial	500	0	0	0	0	0	33	1	406	0	1	+	50pct	50pct	0	4	7	50pct	50pct	8317
110816	15:54:43	1	1	4.0.9.0	2	4	oddevenblk	evennumbertrial	500	0	0	0	0	0	Ctrl+'Q'	1	0	0	1	+	50pct	50pct	1	1	2	50pct	50pct	8316
110816	15:56:29	1	1	4.0.9.0	2	1	oddevenblk	evennumbertrial	500	0	0	0	0	0	33	0	452	0	1	+	50pct	50pct	0	1	2	50pct	50pct	1649
110816	15:56:29	1	1	4.0.9.0	2	2	oddevenblk	oddnumbertrial	500	0	0	0	0	0	36	0	397	0	1	+	50pct	50pct	0	1	1	50pct	50pct	1649
110816	15:56:29	1	1	4.0.9.0	2	3	oddevenblk	oddnumbertrial	500	0	0	0	0	0	36	0	569	0	1	+	50pct	50pct	29	2	3	50pct	50pct	1649
110816	15:56:29	1	1	4.0.9.0	2	4	oddevenblk	oddnumbertrial	500	0	0	0	0	0	33	1	803	0	1	+	50pct	50pct	7	4	7	50pct	50pct	1649
110816	15:56:29	1	1	4.0.9.0	2	5	oddevenblk	oddnumbertrial	500	0	0	0	0	0	33	1	730	0	1	+	50pct	50pct	0	3	5	50pct	50pct	1649
110816	15:56:29	1	1	4.0.9.0	2	6	oddevenblk	oddnumbertrial	500	0	0	0	0	0	33	1	548	0	1	+	50pct	50pct	0	2	3	50pct	50pct	1649
110816	15:56:29	1	1	4.0.9.0	2	7	oddevenblk	evennumbertrial	500	0	0	0	0	0	36	1	652	0	1	+	50pct	50pct	0	3	6	50pct	50pct	1649
110816	15:56:29	1	1	4.0.9.0	2	8	oddevenblk	oddnumbertrial	500	0	0	0	0	0	33	1	618	0	1	+	50pct	50pct	0	3	5	50pct	50pct	1649
110816	15:56:29	1	1	4.0.9.0	2	9	oddevenblk	evennumbertrial	500	0	0	0	0	0	Ctrl+'Q'	1	12221	0	1	+	50pct	50pct	0	4	8	50pct	50pct	1649
110816	15:59:51	1	1	4.0.9.0	2	1	oddevenblk	oddnumbertrial	500	0	0	0	0	0	Ctrl+'Q'	1	0	0	1	+	50pct	50pct	0	1	1	50pct	50pct	1649
110816	16:00:34	1	1	4.0.9.0	2	1	oddevenblk	oddnumbertrial	500	0	0	0	0	0	33	1	749	0	1	+	50pct	50pct	0	4	7	50pct	50pct	1649
110816	16:00:34	1	1	4.0.9.0	2	2	oddevenblk	evennumbertrial	500	0	0	0	0	0	36	1	491	0	1	+	50pct	50pct	0	1	2	50pct	50pct	1650
110816	16:00:34	1	1	4.0.9.0	2	3	oddevenblk	evennumbertrial	500	0	0	0	0	0	36	1	533	0	1	+	50pct	50pct	0	2	4	50pct	50pct	1649
110816	16:00:34	1	1	4.0.9.0	2	4	oddevenblk	oddnumbertrial	500	0	0	0	0	0	33	1	566	0	1	+	50pct	50pct	0	1	1	50pct	50pct	1649
110816	16:00:34	1	1	4.0.9.0	2	5	oddevenblk	oddnumbertrial	500	0	0	0	0	0	33	1	566	0	1	+	50pct	50pct	0	2	3	50pct	50pct	1649
110816	16:00:34	1	1	4.0.9.0	2	6	oddevenblk	oddnumbertrial	500	0	0	0	0	0	33	1	431	0	1	+	50pct	50pct	0	3	5	50pct	50pct	1649
110816	16:00:34	1	1	4.0.9.0	2	7	oddevenblk	evennumbertrial	500	0	0	0	0	0	36	1	541	0	1	+	50pct	50pct	0	3	6	50pct	50pct	1649
110816	16:00:34	1	1	4.0.9.0	2	8	oddevenblk	oddnumbertrial	500	0	0	0	0	0	33	1	463	0	1	+	50pct	50pct	0	2	3	50pct	50pct	1649
110816	16:00:34	1	1	4.0.9.0	2	9	oddevenblk	oddnumbertrial	500	0	0	0	0	0	33	1	523	0	1	+	50pct	50pct	0	3	5	50pct	50pct	1649
110816	16:00:34	1	1	4.0.9.0	2	10	oddevenblk	oddnumbertrial	500	0	0	0	0	0	33	1	558	0	1	+	50pct	50pct	0	4	7	50pct	50pct	1649
110816	16:00:34	1	1	4.0.9.0	2	11	oddevenblk	evennumbertrial	500	0	0	0	0	0	36	1	567	0	1	+	50pct	50pct	2	4	8	50pct	50pct	1649
110816	16:00:34	1	1	4.0.9.0	2	12	oddevenblk	oddnumbertrial	500	0	0	0	0	0	33	1	495	0	1	+	50pct	50pct	0	1	1	50pct	50pct	1649
110816	16:00:34	1	1	4.0.9.0	2	13	oddevenblk	oddnumbertrial	500	0	0	0	0	0	33	1	627	0	1	+	50pct	50pct	0	2	3	50pct	50pct	1649
110816	16:00:34	1	1	4.0.9.0	2	14	oddevenblk	evennumbertrial	500	0	0	0	0	0	36	1	570	0	1	+	50pct	50pct	0	2	4	50pct	50pct	1649
110816	16:00:34	1	1	4.0.9.0	2	15	oddevenblk	oddnumbertrial	500	0	0	0	0	0	33	1	762	0	1	+	50pct	50pct	0	4	7	50pct	50pct	1649
110816	16:00:34	1	1	4.0.9.0	2	16	oddevenblk	evennumbertrial	500	0	0	0	0	0	36	1	722	0	1	+	50pct	50pct	0	4	8	50pct	50pct	1649
110816	16:00:34	1	1	4.0.9.0	2	17	oddevenblk	oddnumbertrial	500	0	0	0	0	0	33	1	484	0	1	+	50pct	50pct	0	3	5	50pct	50pct	1649
110816	16:00:34	1	1	4.0.9.0	2	18	oddevenblk	evennumbertrial	500	0	0	0	0	0	36	1	737	0	1	+	50pct	50pct	0	3	6	50pct	50pct	1649
110816	16:00:34	1	1	4.0.9.0	2	19	oddevenblk	oddnumbertrial	500	0	0	0	0	0	33	1	601	0	1	+	50pct	50pct	0	1	1	50pct	50pct	1649
110816	16:00:34	1	1	4.0.9.0	2	20	oddevenblk	oddnumbertrial	500	0	0	0	0	0	33	1	538	0	1	+	50pct	50pct	2	2	3	50pct	50pct	1649
110816	16:00:34	1	1	4.0.9.0	2	21	oddevenblk	evennumbertrial	500	0	0	0	0	0	36	1	762	0	1	+	50pct	50pct	0	1	2	50pct	50pct	1649
110816	16:00:34	1	1	4.0.9.0	2	22	oddevenblk	oddnumbertrial	500	0	0	0	0	0	33	1	611	0	1	+	50pct	50pct	0	4	7	50pct	50pct	1649
110816	16:00:34	1	1	4.0.9.0	2	23	oddevenblk	evennumbertrial	500	0	0	0	0	0	36	1	761	0	1	+	50pct	50pct	0	2	4	50pct	50pct	1649
110816	16:00:34	1	1	4.0.9.0	2	24	oddevenblk	oddnumbertrial	500	0	0	0	0	0	33	1	625	0	1	+	50pct	50pct	0	3	5	50pct	50pct	1649
110816	16:00:34	1	1	4.0.9.0	2	25	oddevenblk	evennumbertrial	500	0	0	0	0	0	36	1	584	0	1	+	50pct	50pct	0	1	2	50pct	50pct	1649
110816	16:00:34	1	1	4.0.9.0	2	26	oddevenblk	evennumbertrial	500	0	0	0	0	0	36	1	784	0	1	+	50pct	50pct	0	4	8	50pct	50pct	1649
110816	16:00:34	1	1	4.0.9.0	2	27	oddevenblk	evennumbertrial	500	0	0	0	0	0	33	0	696	0	1	+	50pct	50pct	0	3	6	50pct	50pct	1649
110816	16:00:34	1	1	4.0.9.0	2	28	oddevenblk	oddnumbertrial	500	0	0	0	0	0	33	1	923	0	1	+	50pct	50pct	0	1	1	50pct	50pct	1649
110816	16:00:34	1	1	4.0.9.0	2	29	oddevenblk	evennumbertrial	500	0	0	0	0	0	36	1	644	0	1	+	50pct	50pct	0	4	8	50pct	50pct	1649
110816	16:00:34	1	1	4.0.9.0	2	30	oddevenblk	evennumbertrial	500	0	0	0	0	0	36	1	931	0	1	+	50pct	50pct	0	3	6	50pct	50pct	1649
110816	16:00:34	1	1	4.0.9.0	2	31	oddevenblk	evennumbertrial	500	0	0	0	0	0	36	1	619	0	1	+	50pct	50pct	0	1	2	50pct	50pct	1650
110816	16:00:34	1	1	4.0.9.0	2	32	oddevenblk	oddnumbertrial	500	0	0	0	0	0	33	1	587	0	1	+	50pct	50pct	0	3	5	50pct	50pct	1649
110816	16:00:34	1	1	4.0.9.0	2	33	oddevenblk	oddnumbertrial	500	0	0	0	0	0	33	1	581	0	1	+	50pct	50pct	0	1	1	50pct	50pct	1649
110816	16:00:34	1	1	4.0.9.0	2	34	oddevenblk	evennumbertrial	500	0	0	0	0	0	36	1	570	0	1	+	50pct	50pct	0	2	4	50pct	50pct	1649
110816	16:00:34	1	1	4.0.9.0	2	35	oddevenblk	oddnumbertrial	500	0	0	0	0	0	33	1	651	0	1	+	50pct	50pct	0	2	3	50pct	50pct	1649
110816	16:00:34	1	1	4.0.9.0	2	36	oddevenblk	evennumbertrial	500	0	0	0	0	0	36	1	673	0	1	+	50pct	50pct	0	1	2	50pct	50pct	1649
110816	16:00:34	1	1	4.0.9.0	2	37	oddevenblk	oddnumbertrial	500	0	0	0	0	0	33	1	636	0	1	+	50pct	50pct	0	4	7	50pct	50pct	1649
110816	16:00:34	1	1	4.0.9.0	2	38	oddevenblk	evennumbertrial	500	0	0	0	0	0	36	1	506	0	1	+	50pct	50pct	0	4	8	50pct	50pct	1649
110816	16:00:34	1	1	4.0.9.0	2	39	oddevenblk	evennumbertrial	500	0	0	0	0	0	36	1	574	0	1	+	50pct	50pct	0	2	4	50pct	50pct	1649
110816	16:00:34	1	1	4.0.9.0	2	40	oddevenblk	oddnumbertrial	500	0	0	0	0	0	33	1	773	0	1	+	50pct	50pct	0	2	3	50pct	50pct	1649
110816	16:00:34	1	1	4.0.9.0	2	41	oddevenblk	evennumbertrial	500	0	0	0	0	0	36	1	692	0	1	+	50pct	50pct	0	3	6	50pct	50pct	1649
110816	16:00:34	1	1	4.0.9.0	2	42	oddevenblk	evennumbertrial	500	0	0	0	0	0	36	1	545	0	1	+	50pct	50pct	0	3	6	50pct	50pct	1649
110816	16:00:34	1	1	4.0.9.0	2	43	oddevenblk	oddnumbertrial	500	0	0	0	0	0	33	1	562	0	1	+	50pct	50pct	0	3	5	50pct	50pct	1649
110816	16:00:34	1	1	4.0.9.0	2	44	oddevenblk	evennumbertrial	500	0	0	0	0	0	36	1	707	0	1	+	50pct	50pct	0	1	2	50pct	50pct	1649
110816	16:00:34	1	1	4.0.9.0	2	45	oddevenblk	oddnumbertrial	500	0	0	0	0	0	33	1	605	0	1	+	50pct	50pct	0	1	1	50pct	50pct	1649
110816	16:00:34	1	1	4.0.9.0	2	46	oddevenblk	evennumbertrial	500	0	0	0	0	0	36	1	692	0	1	+	50pct	50pct	0	2	4	50pct	50pct	1649
110816	16:00:34	1	1	4.0.9.0	2	47	oddevenblk	oddnumbertrial	500	0	0	0	0	0	33	1	1400	0	1	+	50pct	50pct	0	4	7	50pct	50pct	1649
110816	16:00:34	1	1	4.0.9.0	2	48	oddevenblk	evennumbertrial	500	0	0	0	0	0	36	1	518	0	1	+	50pct	50pct	0	4	8	50pct	50pct	1649
110816	16:10:19	1	1	4.0.9.0	2	1	oddevenblk	evennumbertrial	500	0	0	0	0	0	36	1	38	0	1	+	50pct	50pct	0	1	2	50pct	50pct	1649
110816	16:10:19	1	1	4.0.9.0	2	2	oddevenblk	oddnumbertrial	500	0	0	0	0	0	33	1	41	0	1	+	50pct	50pct	0	2	3	50pct	50pct	1649
110816	16:10:19	1	1	4.0.9.0	2	3	oddevenblk	oddnumbertrial	500	0	0	0	0	0	33	1	21	0	1	+	50pct	50pct	0	1	1	50pct	50pct	1649
110816	16:10:19	1	1	4.0.9.0	2	4	oddevenblk	oddnumbertrial	500	0	0	0	0	0	33	1	55	0	1	+	50pct	50pct	0	3	5	50pct	50pct	1649
110816	16:10:19	1	1	4.0.9.0	2	5	oddevenblk	evennumbertrial	500	0	0	0	0	0	36	1	33	0	1	+	50pct	50pct	0	3	6	50pct	50pct	1650
110816	16:10:19	1	1	4.0.9.0	2	6	oddevenblk	oddnumbertrial	500	0	0	0	0	0	33	1	40	0	1	+	50pct	50pct	0	4	7	50pct	50pct	1649
110816	16:10:19	1	1	4.0.9.0	2	7	oddevenblk	evennumbertrial	500	0	0	0	0	0	36	1	24	0	1	+	50pct	50pct	0	4	8	50pct	50pct	1649
110816	16:10:19	1	1	4.0.9.0	2	8	oddevenblk	oddnumbertrial	500	0	0	0	0	0	33	1	53	0	1	+	50pct	50pct	0	1	1	50pct	50pct	1649
110816	16:10:19	1	1	4.0.9.0	2	9	oddevenblk	oddnumbertrial	500	0	0	0	0	0	36	0	30	0	1	+	50pct	50pct	0	2	3	50pct	50pct	1649
110816	16:10:19	1	1	4.0.9.0	2	10	oddevenblk	evennumbertrial	500	0	0	0	0	0	36	1	58	0	1	+	50pct	50pct	0	2	4	50pct	50pct	1649
110816	16:10:19	1	1	4.0.9.0	2	11	oddevenblk	oddnumbertrial	500	0	0	0	0	0	33	1	45	0	1	+	50pct	50pct	0	4	7	50pct	50pct	1649
110816	16:10:19	1	1	4.0.9.0	2	12	oddevenblk	evennumbertrial	500	0	0	0	0	0	33	0	48	0	1	+	50pct	50pct	0	2	4	50pct	50pct	1649
110816	16:10:19	1	1	4.0.9.0	2	13	oddevenblk	oddnumbertrial	500	0	0	0	0	0	36	0	26	0	1	+	50pct	50pct	0	3	5	50pct	50pct	1649
110816	16:10:19	1	1	4.0.9.0	2	14	oddevenblk	oddnumbertrial	500	0	0	0	0	0	33	1	32	0	1	+	50pct	50pct	0	4	7	50pct	50pct	1649
110816	16:10:19	1	1	4.0.9.0	2	15	oddevenblk	evennumbertrial	500	0	0	0	0	0	33	0	55	0	1	+	50pct	50pct	0	1	2	50pct	50pct	1649
110816	16:10:19	1	1	4.0.9.0	2	16	oddevenblk	oddnumbertrial	500	0	0	0	0	0	33	1	33	0	1	+	50pct	50pct	0	2	3	50pct	50pct	1649
110816	16:10:19	1	1	4.0.9.0	2	17	oddevenblk	evennumbertrial	500	0	0	0	0	0	36	1	44	0	1	+	50pct	50pct	0	3	6	50pct	50pct	1649
110816	16:10:19	1	1	4.0.9.0	2	18	oddevenblk	oddnumbertrial	500	0	0	0	0	0	33	1	32	0	1	+	50pct	50pct	0	3	5	50pct	50pct	1649
110816	16:10:19	1	1	4.0.9.0	2	19	oddevenblk	oddnumbertrial	500	0	0	0	0	0	33	1	55	0	1	+	50pct	50pct	0	1	1	50pct	50pct	1649
110816	16:10:19	1	1	4.0.9.0	2	20	oddevenblk	oddnumbertrial	500	0	0	0	0	0	33	1	41	0	1	+	50pct	50pct	0	3	5	50pct	50pct	1649
110816	16:10:19	1	1	4.0.9.0	2	21	oddevenblk	oddnumbertrial	500	0	0	0	0	0	33	1	44	0	1	+	50pct	50pct	0	1	1	50pct	50pct	1649
110816	16:10:19	1	1	4.0.9.0	2	22	oddevenblk	evennumbertrial	500	0	0	0	0	0	36	1	46	0	1	+	50pct	50pct	0	4	8	50pct	50pct	1649
110816	16:10:19	1	1	4.0.9.0	2	23	oddevenblk	evennumbertrial	500	0	0	0	0	0	36	1	34	0	1	+	50pct	50pct	0	4	8	50pct	50pct	1649
110816	16:10:19	1	1	4.0.9.0	2	24	oddevenblk	oddnumbertrial	500	0	0	0	0	0	36	0	42	0	1	+	50pct	50pct	0	4	7	50pct	50pct	1649
110816	16:10:19	1	1	4.0.9.0	2	25	oddevenblk	evennumbertrial	500	0	0	0	0	0	33	0	53	0	1	+	50pct	50pct	0	2	4	50pct	50pct	1649
110816	16:10:19	1	1	4.0.9.0	2	26	oddevenblk	oddnumbertrial	500	0	0	0	0	0	36	0	51	0	1	+	50pct	50pct	0	2	3	50pct	50pct	1649
110816	16:10:19	1	1	4.0.9.0	2	27	oddevenblk	evennumbertrial	500	0	0	0	0	0	36	1	47	0	1	+	50pct	50pct	0	3	6	50pct	50pct	1649
110816	16:10:19	1	1	4.0.9.0	2	28	oddevenblk	evennumbertrial	500	0	0	0	0	0	36	1	45	0	1	+	50pct	50pct	0	1	2	50pct	50pct	1649
110816	16:10:19	1	1	4.0.9.0	2	29	oddevenblk	evennumbertrial	500	0	0	0	0	0	36	1	44	0	1	+	50pct	50pct	0	2	4	50pct	50pct	1649
110816	16:10:19	1	1	4.0.9.0	2	30	oddevenblk	evennumbertrial	500	0	0	0	0	0	36	1	27	0	1	+	50pct	50pct	0	3	6	50pct	50pct	1649
110816	16:10:19	1	1	4.0.9.0	2	31	oddevenblk	evennumbertrial	500	0	0	0	0	0	36	1	31	0	1	+	50pct	50pct	0	4	8	50pct	50pct	1649
110816	16:10:19	1	1	4.0.9.0	2	32	oddevenblk	oddnumbertrial	500	0	0	0	0	0	33	1	31	0	1	+	50pct	50pct	0	3	5	50pct	50pct	1649
110816	16:10:19	1	1	4.0.9.0	2	33	oddevenblk	evennumbertrial	500	0	0	0	0	0	33	0	56	0	1	+	50pct	50pct	0	1	2	50pct	50pct	1649
110816	16:10:19	1	1	4.0.9.0	2	34	oddevenblk	evennumbertrial	500	0	0	0	0	0	36	1	38	0	1	+	50pct	50pct	0	4	8	50pct	50pct	1649
110816	16:10:19	1	1	4.0.9.0	2	35	oddevenblk	evennumbertrial	500	0	0	0	0	0	36	1	29	0	1	+	50pct	50pct	0	3	6	50pct	50pct	1649
110816	16:10:19	1	1	4.0.9.0	2	36	oddevenblk	oddnumbertrial	500	0	0	0	0	0	33	1	42	0	1	+	50pct	50pct	0	2	3	50pct	50pct	1649
110816	16:10:19	1	1	4.0.9.0	2	37	oddevenblk	oddnumbertrial	500	0	0	0	0	0	33	1	39	0	1	+	50pct	50pct	0	4	7	50pct	50pct	1649
110816	16:10:19	1	1	4.0.9.0	2	38	oddevenblk	oddnumbertrial	500	0	0	0	0	0	33	1	28	0	1	+	50pct	50pct	0	1	1	50pct	50pct	1649
110816	16:10:19	1	1	4.0.9.0	2	39	oddevenblk	oddnumbertrial	500	0	0	0	0	0	33	1	46	0	1	+	50pct	50pct	0	1	1	50pct	50pct	1649
110816	16:10:19	1	1	4.0.9.0	2	40	oddevenblk	evennumbertrial	500	0	0	0	0	0	36	1	39	0	1	+	50pct	50pct	0	2	4	50pct	50pct	1649
110816	16:10:19	1	1	4.0.9.0	2	41	oddevenblk	evennumbertrial	500	0	0	0	0	0	36	1	43	0	1	+	50pct	50pct	0	1	2	50pct	50pct	1649
110816	16:10:19	1	1	4.0.9.0	2	42	oddevenblk	evennumbertrial	500	0	0	0	0	0	36	1	36	0	1	+	50pct	50pct	0	2	4	50pct	50pct	1649
110816	16:10:19	1	1	4.0.9.0	2	43	oddevenblk	evennumbertrial	500	0	0	0	0	0	36	1	36	0	1	+	50pct	50pct	0	1	2	50pct	50pct	1649
110816	16:10:19	1	1	4.0.9.0	2	44	oddevenblk	evennumbertrial	500	0	0	0	0	0	36	1	43	0	1	+	50pct	50pct	0	3	6	50pct	50pct	1649
110816	16:10:19	1	1	4.0.9.0	2	45	oddevenblk	oddnumbertrial	500	0	0	0	0	0	36	0	41	0	1	+	50pct	50pct	0	3	5	50pct	50pct	1649
110816	16:10:19	1	1	4.0.9.0	2	46	oddevenblk	oddnumbertrial	500	0	0	0	0	0	33	1	38	0	1	+	50pct	50pct	0	4	7	50pct	50pct	1649
110816	16:10:19	1	1	4.0.9.0	2	47	oddevenblk	oddnumbertrial	500	0	0	0	0	0	33	1	48	0	1	+	50pct	50pct	0	2	3	50pct	50pct	1649
110816	16:10:19	1	1	4.0.9.0	2	48	oddevenblk	evennumbertrial	500	0	0	0	0	0	36	1	60	0	1	+	50pct	50pct	0	4	8	50pct	50pct	1649
111016	15:53:54	1	1	4.0.9.0	2	1	oddevenblk	oddnumbertrial	500	0	0	0	0	0	33	1	2247	0	1	+	50pct	50pct	0	3	5	50pct	50pct	1649
111016	15:53:54	1	1	4.0.9.0	2	2	oddevenblk	evennumbertrial	500	0	0	0	0	0	36	1	479	0	1	+	50pct	50pct	0	3	6	50pct	50pct	1649
111016	15:53:54	1	1	4.0.9.0	2	3	oddevenblk	oddnumbertrial	500	0	0	0	0	0	33	1	352	0	1	+	50pct	50pct	0	1	1	50pct	50pct	1649
111016	15:53:54	1	1	4.0.9.0	2	4	oddevenblk	oddnumbertrial	500	0	0	0	0	0	36	0	1105	0	1	+	50pct	50pct	0	4	7	50pct	50pct	1649
111016	15:53:54	1	1	4.0.9.0	2	5	oddevenblk	evennumbertrial	500	0	0	0	0	0	Ctrl+'Q'	1	158103	0	1	+	50pct	50pct	0	4	8	50pct	50pct	1649
111116	01:42:49	1	1	4.0.9.0	2	1	oddevenblk	oddnumbertrial	500	0	0	0	0	0	36	0	32	0	1	+	50pct	50pct	0	4	7	50pct	50pct	1649
111116	01:42:49	1	1	4.0.9.0	2	2	oddevenblk	evennumbertrial	500	0	0	0	0	0	Ctrl+'Q'	1	0	0	1	+	50pct	50pct	0	2	4	50pct	50pct	1649
