date	time	group	subject	build	blocknum	trialnum	blockcode	trialcode	pretrialpause	posttrialpause	windowcenter	trialduration	trialtimeout	blocktimeout	response	correct	latency	inwindow	stimulusnumber1	stimulusitem1	stimulusvpos1	stimulushpos1	stimulusonset1	stimulusnumber2	stimulusitem2	stimulusvpos2	stimulushpos2	stimulusonset2
111116	02:58:58	1	1	4.0.9.0	2	1	oddevenblk	oddnumbertrial	500	0	0	0	0	0	33	1	45	0	4	7	50pct	50pct	0	0	0	0	0	0
111116	02:58:58	1	1	4.0.9.0	2	2	oddevenblk	oddnumbertrial	500	0	0	0	0	0	33	1	30	0	1	1	50pct	50pct	0	0	0	0	0	0
111116	02:58:58	1	1	4.0.9.0	2	3	oddevenblk	evennumbertrial	500	0	0	0	0	0	36	1	37	0	3	6	50pct	50pct	0	0	0	0	0	0
111116	02:58:58	1	1	4.0.9.0	2	4	oddevenblk	oddnumbertrial	500	0	0	0	0	0	33	1	30	0	2	3	50pct	50pct	0	0	0	0	0	0
111116	02:58:58	1	1	4.0.9.0	2	5	oddevenblk	oddnumbertrial	500	0	0	0	0	0	33	1	28	0	3	5	50pct	50pct	0	0	0	0	0	0
111116	02:58:58	1	1	4.0.9.0	2	6	oddevenblk	evennumbertrial	500	0	0	0	0	0	36	1	51	0	4	8	50pct	50pct	0	0	0	0	0	0
111116	02:58:58	1	1	4.0.9.0	2	7	oddevenblk	evennumbertrial	500	0	0	0	0	0	36	1	47	0	2	4	50pct	50pct	0	0	0	0	0	0
111116	02:58:58	1	1	4.0.9.0	2	8	oddevenblk	evennumbertrial	500	0	0	0	0	0	36	1	53	0	1	2	50pct	50pct	0	0	0	0	0	0
111116	02:58:58	1	1	4.0.9.0	2	9	oddevenblk	oddnumbertrial	500	0	0	0	0	0	33	1	49	0	3	5	50pct	50pct	0	0	0	0	0	0
111116	02:58:58	1	1	4.0.9.0	2	10	oddevenblk	oddnumbertrial	500	0	0	0	0	0	36	0	22	0	1	1	50pct	50pct	0	0	0	0	0	0
111116	02:58:58	1	1	4.0.9.0	2	11	oddevenblk	evennumbertrial	500	0	0	0	0	0	36	1	45	0	3	6	50pct	50pct	0	0	0	0	0	0
111116	02:58:58	1	1	4.0.9.0	2	12	oddevenblk	evennumbertrial	500	0	0	0	0	0	33	0	33	0	4	8	50pct	50pct	0	0	0	0	0	0
111116	02:58:58	1	1	4.0.9.0	2	13	oddevenblk	evennumbertrial	500	0	0	0	0	0	33	0	42	0	1	2	50pct	50pct	0	0	0	0	0	0
111116	02:58:58	1	1	4.0.9.0	2	14	oddevenblk	oddnumbertrial	500	0	0	0	0	0	36	0	48	0	2	3	50pct	50pct	0	0	0	0	0	0
111116	02:58:58	1	1	4.0.9.0	2	15	oddevenblk	oddnumbertrial	500	0	0	0	0	0	33	1	58	0	4	7	50pct	50pct	0	0	0	0	0	0
111116	02:58:58	1	1	4.0.9.0	2	16	oddevenblk	evennumbertrial	500	0	0	0	0	0	36	1	45	0	2	4	50pct	50pct	0	0	0	0	0	0
111116	02:59:33	1	1	4.0.9.0	2	1	oddevenblk	oddnumbertrial	500	0	0	0	0	0	33	1	49	0	3	5	50pct	50pct	0	0	0	0	0	0
111116	02:59:33	1	1	4.0.9.0	2	2	oddevenblk	evennumbertrial	500	0	0	0	0	0	36	1	23	0	4	8	50pct	50pct	0	0	0	0	0	0
111116	02:59:33	1	1	4.0.9.0	2	3	oddevenblk	oddnumbertrial	500	0	0	0	0	0	36	0	44	0	4	7	50pct	50pct	0	0	0	0	0	0
111116	02:59:33	1	1	4.0.9.0	2	4	oddevenblk	evennumbertrial	500	0	0	0	0	0	36	1	55	0	3	6	50pct	50pct	0	0	0	0	0	0
111116	02:59:33	1	1	4.0.9.0	2	5	oddevenblk	oddnumbertrial	500	0	0	0	0	0	33	1	38	0	2	3	50pct	50pct	0	0	0	0	0	0
111116	02:59:33	1	1	4.0.9.0	2	6	oddevenblk	oddnumbertrial	500	0	0	0	0	0	36	0	40	0	1	1	50pct	50pct	0	0	0	0	0	0
111116	02:59:33	1	1	4.0.9.0	2	7	oddevenblk	evennumbertrial	500	0	0	0	0	0	36	1	52	0	2	4	50pct	50pct	0	0	0	0	0	0
111116	02:59:33	1	1	4.0.9.0	2	8	oddevenblk	oddnumbertrial	500	0	0	0	0	0	33	1	43	0	4	7	50pct	50pct	0	0	0	0	0	0
111116	02:59:33	1	1	4.0.9.0	2	9	oddevenblk	oddnumbertrial	500	0	0	0	0	0	36	0	50	0	3	5	50pct	50pct	0	0	0	0	0	0
111116	02:59:33	1	1	4.0.9.0	2	10	oddevenblk	oddnumbertrial	500	0	0	0	0	0	33	1	62	0	2	3	50pct	50pct	0	0	0	0	0	0
111116	02:59:33	1	1	4.0.9.0	2	11	oddevenblk	evennumbertrial	500	0	0	0	0	0	36	1	55	0	1	2	50pct	50pct	0	0	0	0	0	0
111116	02:59:33	1	1	4.0.9.0	2	12	oddevenblk	evennumbertrial	500	0	0	0	0	0	36	1	51	0	4	8	50pct	50pct	0	0	0	0	0	0
111116	02:59:33	1	1	4.0.9.0	2	13	oddevenblk	evennumbertrial	500	0	0	0	0	0	36	1	52	0	1	2	50pct	50pct	0	0	0	0	0	0
111116	02:59:33	1	1	4.0.9.0	2	14	oddevenblk	evennumbertrial	500	0	0	0	0	0	36	1	31	0	2	4	50pct	50pct	0	0	0	0	0	0
111116	02:59:33	1	1	4.0.9.0	2	15	oddevenblk	evennumbertrial	500	0	0	0	0	0	36	1	41	0	3	6	50pct	50pct	0	0	0	0	0	0
111116	02:59:33	1	1	4.0.9.0	2	16	oddevenblk	oddnumbertrial	500	0	0	0	0	0	33	1	31	0	1	1	50pct	50pct	0	0	0	0	0	0
111116	03:00:35	1	1	4.0.9.0	2	1	oddevenblk	oddnumbertrial	500	0	0	0	0	0	33	1	1855	0	3	5	50pct	50pct	0	0	0	0	0	0
111116	03:00:35	1	1	4.0.9.0	2	2	oddevenblk	evennumbertrial	500	0	0	0	0	0	36	1	809	0	4	8	50pct	50pct	0	0	0	0	0	0
111116	03:00:35	1	1	4.0.9.0	2	3	oddevenblk	evennumbertrial	500	0	0	0	0	0	36	1	624	0	3	6	50pct	50pct	0	0	0	0	0	0
111116	03:00:35	1	1	4.0.9.0	2	4	oddevenblk	evennumbertrial	500	0	0	0	0	0	36	1	671	0	1	2	50pct	50pct	0	0	0	0	0	0
111116	03:00:35	1	1	4.0.9.0	2	5	oddevenblk	oddnumbertrial	500	0	0	0	0	0	33	1	648	0	2	3	50pct	50pct	0	0	0	0	0	0
111116	03:00:35	1	1	4.0.9.0	2	6	oddevenblk	oddnumbertrial	500	0	0	0	0	0	33	1	593	0	1	1	50pct	50pct	0	0	0	0	0	0
111116	03:00:35	1	1	4.0.9.0	2	7	oddevenblk	oddnumbertrial	500	0	0	0	0	0	33	1	552	0	4	7	50pct	50pct	1	0	0	0	0	0
111116	03:00:35	1	1	4.0.9.0	2	8	oddevenblk	oddnumbertrial	500	0	0	0	0	0	33	1	622	0	3	5	50pct	50pct	0	0	0	0	0	0
111116	03:00:35	1	1	4.0.9.0	2	9	oddevenblk	evennumbertrial	500	0	0	0	0	0	36	1	640	0	2	4	50pct	50pct	0	0	0	0	0	0
111116	03:00:35	1	1	4.0.9.0	2	10	oddevenblk	evennumbertrial	500	0	0	0	0	0	33	0	864	0	1	2	50pct	50pct	0	0	0	0	0	0
111116	03:00:35	1	1	4.0.9.0	2	11	oddevenblk	oddnumbertrial	500	0	0	0	0	0	33	1	799	0	2	3	50pct	50pct	0	0	0	0	0	0
111116	03:00:35	1	1	4.0.9.0	2	12	oddevenblk	oddnumbertrial	500	0	0	0	0	0	33	1	641	0	1	1	50pct	50pct	0	0	0	0	0	0
111116	03:00:35	1	1	4.0.9.0	2	13	oddevenblk	oddnumbertrial	500	0	0	0	0	0	33	1	738	0	4	7	50pct	50pct	0	0	0	0	0	0
111116	03:00:35	1	1	4.0.9.0	2	14	oddevenblk	evennumbertrial	500	0	0	0	0	0	36	1	678	0	2	4	50pct	50pct	0	0	0	0	0	0
111116	03:00:35	1	1	4.0.9.0	2	15	oddevenblk	evennumbertrial	500	0	0	0	0	0	36	1	493	0	3	6	50pct	50pct	0	0	0	0	0	0
111116	03:00:35	1	1	4.0.9.0	2	16	oddevenblk	evennumbertrial	500	0	0	0	0	0	36	1	484	0	4	8	50pct	50pct	0	0	0	0	0	0
111116	03:01:41	1	1	4.0.9.0	2	1	oddevenblk	oddnumbertrial	500	0	0	0	0	0	Ctrl+'Q'	1	1609	0	3	5	50pct	50pct	0	0	0	0	0	0
111116	03:02:29	1	1	4.0.9.0	2	1	oddevenblk	evennumbertrial	500	0	0	0	0	0	36	1	937	0	4	8	50pct	50pct	0	0	0	0	0	0
111116	03:02:29	1	1	4.0.9.0	2	2	oddevenblk	oddnumbertrial	500	0	0	0	0	0	33	1	653	0	3	5	50pct	50pct	0	0	0	0	0	0
111116	03:02:29	1	1	4.0.9.0	2	3	oddevenblk	oddnumbertrial	500	0	0	0	0	0	33	1	653	0	1	1	50pct	50pct	0	0	0	0	0	0
111116	03:02:29	1	1	4.0.9.0	2	4	oddevenblk	oddnumbertrial	500	0	0	0	0	0	33	1	725	0	4	7	50pct	50pct	0	0	0	0	0	0
111116	03:02:29	1	1	4.0.9.0	2	5	oddevenblk	oddnumbertrial	500	0	0	0	0	0	33	1	722	0	2	3	50pct	50pct	0	0	0	0	0	0
111116	03:02:29	1	1	4.0.9.0	2	6	oddevenblk	oddnumbertrial	500	0	0	0	0	0	33	1	602	0	4	7	50pct	50pct	0	0	0	0	0	0
111116	03:02:29	1	1	4.0.9.0	2	7	oddevenblk	evennumbertrial	500	0	0	0	0	0	36	1	569	0	2	4	50pct	50pct	0	0	0	0	0	0
111116	03:02:29	1	1	4.0.9.0	2	8	oddevenblk	evennumbertrial	500	0	0	0	0	0	36	1	499	0	1	2	50pct	50pct	0	0	0	0	0	0
111116	03:02:29	1	1	4.0.9.0	2	9	oddevenblk	oddnumbertrial	500	0	0	0	0	0	33	1	587	0	1	1	50pct	50pct	0	0	0	0	0	0
111116	03:02:29	1	1	4.0.9.0	2	10	oddevenblk	evennumbertrial	500	0	0	0	0	0	36	1	661	0	3	6	50pct	50pct	0	0	0	0	0	0
111116	03:02:29	1	1	4.0.9.0	2	11	oddevenblk	evennumbertrial	500	0	0	0	0	0	36	1	493	0	3	6	50pct	50pct	0	0	0	0	0	0
111116	03:02:29	1	1	4.0.9.0	2	12	oddevenblk	oddnumbertrial	500	0	0	0	0	0	33	1	716	0	2	3	50pct	50pct	0	0	0	0	0	0
111116	03:02:29	1	1	4.0.9.0	2	13	oddevenblk	oddnumbertrial	500	0	0	0	0	0	33	1	802	0	3	5	50pct	50pct	0	0	0	0	0	0
111116	03:02:29	1	1	4.0.9.0	2	14	oddevenblk	evennumbertrial	500	0	0	0	0	0	36	1	531	0	4	8	50pct	50pct	0	0	0	0	0	0
111116	03:02:29	1	1	4.0.9.0	2	15	oddevenblk	evennumbertrial	500	0	0	0	0	0	36	1	593	0	1	2	50pct	50pct	0	0	0	0	0	0
111116	03:02:29	1	1	4.0.9.0	2	16	oddevenblk	evennumbertrial	500	0	0	0	0	0	36	1	555	0	2	4	50pct	50pct	0	0	0	0	0	0
