date	time	group	subject	build	blocknum	trialnum	blockcode	trialcode	pretrialpause	posttrialpause	windowcenter	trialduration	trialtimeout	blocktimeout	response	correct	latency	inwindow	stimulusnumber1	stimulusitem1	stimulusvpos1	stimulushpos1	stimulusonset1	stimulusnumber2	stimulusitem2	stimulusvpos2	stimulushpos2	stimulusonset2
111616	16:25:38	1	1	4.0.9.0	2	1	colorjudgeblk	greensame	500	0	0	0	0	0	33	1	20	0	3	绿	50pct	50pct	0	0	0	0	0	0
111616	16:25:38	1	1	4.0.9.0	2	2	colorjudgeblk	yellowwithgreen	500	0	0	0	0	0	36	1	36	0	2	黄	50pct	50pct	0	0	0	0	0	0
111616	16:25:38	1	1	4.0.9.0	2	3	colorjudgeblk	greenwithred	500	0	0	0	0	0	33	0	59	0	3	绿	50pct	50pct	0	0	0	0	0	0
111616	16:25:38	1	1	4.0.9.0	2	4	colorjudgeblk	yellowsame	500	0	0	0	0	0	33	1	46	0	2	黄	50pct	50pct	0	0	0	0	0	0
111616	16:25:38	1	1	4.0.9.0	2	5	colorjudgeblk	greensame	500	0	0	0	0	0	36	0	26	0	3	绿	50pct	50pct	0	0	0	0	0	0
111616	16:25:38	1	1	4.0.9.0	2	6	colorjudgeblk	redsame	500	0	0	0	0	0	36	0	38	0	1	红	50pct	50pct	0	0	0	0	0	0
111616	16:25:38	1	1	4.0.9.0	2	7	colorjudgeblk	greenwithyellow	500	0	0	0	0	0	33	0	59	0	3	绿	50pct	50pct	0	0	0	0	0	0
111616	16:25:38	1	1	4.0.9.0	2	8	colorjudgeblk	yellowwithgreen	500	0	0	0	0	0	36	1	40	0	2	黄	50pct	50pct	0	0	0	0	0	0
111616	16:25:38	1	1	4.0.9.0	2	9	colorjudgeblk	redwithyellow	500	0	0	0	0	0	36	1	27	0	1	红	50pct	50pct	0	0	0	0	0	0
111616	16:25:38	1	1	4.0.9.0	2	10	colorjudgeblk	greenwithred	500	0	0	0	0	0	36	1	13	0	3	绿	50pct	50pct	0	0	0	0	0	0
111616	16:25:38	1	1	4.0.9.0	2	11	colorjudgeblk	redsame	500	0	0	0	0	0	33	1	47	0	1	红	50pct	50pct	0	0	0	0	0	0
111616	16:25:38	1	1	4.0.9.0	2	12	colorjudgeblk	greenwithyellow	500	0	0	0	0	0	36	1	36	0	3	绿	50pct	50pct	0	0	0	0	0	0
111616	16:25:38	1	1	4.0.9.0	2	13	colorjudgeblk	redwithgreen	500	0	0	0	0	0	36	1	55	0	1	红	50pct	50pct	0	0	0	0	0	0
111616	16:25:38	1	1	4.0.9.0	2	14	colorjudgeblk	redwithyellow	500	0	0	0	0	0	36	1	49	0	1	红	50pct	50pct	0	0	0	0	0	0
111616	16:25:38	1	1	4.0.9.0	2	15	colorjudgeblk	yellowsame	500	0	0	0	0	0	33	1	50	0	2	黄	50pct	50pct	0	0	0	0	0	0
111616	16:25:38	1	1	4.0.9.0	2	16	colorjudgeblk	yellowwithred	500	0	0	0	0	0	36	1	44	0	2	黄	50pct	50pct	0	0	0	0	0	0
111616	16:25:38	1	1	4.0.9.0	2	17	colorjudgeblk	redwithgreen	500	0	0	0	0	0	36	1	43	0	1	红	50pct	50pct	0	0	0	0	0	0
111616	16:25:38	1	1	4.0.9.0	2	18	colorjudgeblk	yellowwithred	500	0	0	0	0	0	36	1	42	0	2	黄	50pct	50pct	0	0	0	0	0	0
111616	16:25:54	1	1	4.0.9.0	2	1	colorjudgeblk	greenwithred	500	0	0	0	0	0	36	1	2128	0	3	绿	50pct	50pct	0	0	0	0	0	0
111616	16:25:54	1	1	4.0.9.0	2	2	colorjudgeblk	yellowwithred	500	0	0	0	0	0	36	1	1554	0	2	黄	50pct	50pct	0	0	0	0	0	0
111616	16:25:54	1	1	4.0.9.0	2	3	colorjudgeblk	greensame	500	0	0	0	0	0	33	1	1477	0	3	绿	50pct	50pct	0	0	0	0	0	0
111616	16:25:54	1	1	4.0.9.0	2	4	colorjudgeblk	yellowsame	500	0	0	0	0	0	33	1	1875	0	2	黄	50pct	50pct	0	0	0	0	0	0
111616	16:25:54	1	1	4.0.9.0	2	5	colorjudgeblk	redwithyellow	500	0	0	0	0	0	36	1	1119	0	1	红	50pct	50pct	0	0	0	0	0	0
111616	16:25:54	1	1	4.0.9.0	2	6	colorjudgeblk	greenwithyellow	500	0	0	0	0	0	36	1	1113	0	3	绿	50pct	50pct	0	0	0	0	0	0
111616	16:25:54	1	1	4.0.9.0	2	7	colorjudgeblk	yellowwithgreen	500	0	0	0	0	0	36	1	1932	0	2	黄	50pct	50pct	0	0	0	0	0	0
111616	16:25:54	1	1	4.0.9.0	2	8	colorjudgeblk	redwithgreen	500	0	0	0	0	0	36	1	1006	0	1	红	50pct	50pct	0	0	0	0	0	0
111616	16:25:54	1	1	4.0.9.0	2	9	colorjudgeblk	yellowwithgreen	500	0	0	0	0	0	36	1	1365	0	2	黄	50pct	50pct	0	0	0	0	0	0
111616	16:25:54	1	1	4.0.9.0	2	10	colorjudgeblk	redsame	500	0	0	0	0	0	33	1	1015	0	1	红	50pct	50pct	0	0	0	0	0	0
111616	16:25:54	1	1	4.0.9.0	2	11	colorjudgeblk	yellowwithred	500	0	0	0	0	0	36	1	849	0	2	黄	50pct	50pct	0	0	0	0	0	0
111616	16:25:54	1	1	4.0.9.0	2	12	colorjudgeblk	yellowsame	500	0	0	0	0	0	36	0	817	0	2	黄	50pct	50pct	0	0	0	0	0	0
111616	16:25:54	1	1	4.0.9.0	2	13	colorjudgeblk	greensame	500	0	0	0	0	0	33	1	2939	0	3	绿	50pct	50pct	0	0	0	0	0	0
111616	16:25:54	1	1	4.0.9.0	2	14	colorjudgeblk	greenwithyellow	500	0	0	0	0	0	36	1	706	0	3	绿	50pct	50pct	0	0	0	0	0	0
111616	16:25:54	1	1	4.0.9.0	2	15	colorjudgeblk	redwithgreen	500	0	0	0	0	0	36	1	1584	0	1	红	50pct	50pct	0	0	0	0	0	0
111616	16:25:54	1	1	4.0.9.0	2	16	colorjudgeblk	redwithyellow	500	0	0	0	0	0	36	1	1009	0	1	红	50pct	50pct	0	0	0	0	0	0
111616	16:25:54	1	1	4.0.9.0	2	17	colorjudgeblk	redsame	500	0	0	0	0	0	33	1	723	0	1	红	50pct	50pct	0	0	0	0	0	0
111616	16:25:54	1	1	4.0.9.0	2	18	colorjudgeblk	greenwithred	500	0	0	0	0	0	36	1	1031	0	3	绿	50pct	50pct	0	0	0	0	0	0
