date	time	group	subject	build	blocknum	trialnum	blockcode	trialcode	pretrialpause	posttrialpause	windowcenter	trialduration	trialtimeout	blocktimeout	response	correct	latency	inwindow	stimulusnumber1	stimulusitem1	stimulusvpos1	stimulushpos1	stimulusonset1	stimulusnumber2	stimulusitem2	stimulusvpos2	stimulushpos2	stimulusonset2
111616	17:42:34	1	1	4.0.9.0	2	1	colorjudgeblk	yellowsame	500	0	0	0	0	0	33	1	41	0	1	+	50pct	50pct	0	2	黄	50pct	50pct	8316
111616	17:42:34	1	1	4.0.9.0	2	2	colorjudgeblk	greenwithred	500	0	0	0	0	0	Ctrl+'Q'	1	0	0	1	+	50pct	50pct	0	3	绿	50pct	50pct	8316
111616	17:44:22	1	1	4.0.9.0	2	1	colorjudgeblk	yellowwithred	500	0	0	0	0	0	33	0	4092	0	1	+	50pct	50pct	0	2	黄	50pct	50pct	816
111616	17:44:22	1	1	4.0.9.0	2	2	colorjudgeblk	greensame	500	0	0	0	0	0	33	1	763	0	1	+	50pct	50pct	0	3	绿	50pct	50pct	816
111616	17:44:22	1	1	4.0.9.0	2	3	colorjudgeblk	yellowsame	500	0	0	0	0	0	Ctrl+'Q'	1	1365	0	1	+	50pct	50pct	0	2	黄	50pct	50pct	816
111616	17:45:42	1	1	4.0.9.0	2	1	colorjudgeblk	greenwithyellow	500	0	0	0	0	0	Ctrl+'Q'	1	7361	0	1	+	50pct	50pct	0	3	绿	50pct	50pct	49
111616	17:49:08	1	1	4.0.9.0	2	1	colorjudgeblk	greenwithyellow	500	0	0	0	0	0	36	1	10	0	1	+	50pct	50pct	0	3	绿	50pct	50pct	49
111616	17:49:08	1	1	4.0.9.0	2	2	colorjudgeblk	redwithyellow	500	0	0	0	0	0	33	0	40	0	1	+	50pct	50pct	0	1	红	50pct	50pct	49
111616	17:49:08	1	1	4.0.9.0	2	3	colorjudgeblk	redwithgreen	500	0	0	0	0	0	36	1	24	0	1	+	50pct	50pct	0	1	红	50pct	50pct	49
111616	17:49:08	1	1	4.0.9.0	2	4	colorjudgeblk	yellowwithgreen	500	0	0	0	0	0	36	1	53	0	1	+	50pct	50pct	0	2	黄	50pct	50pct	49
111616	17:49:08	1	1	4.0.9.0	2	5	colorjudgeblk	redsame	500	0	0	0	0	0	33	1	33	0	1	+	50pct	50pct	0	1	红	50pct	50pct	49
111616	17:49:08	1	1	4.0.9.0	2	6	colorjudgeblk	greenwithred	500	0	0	0	0	0	36	1	52	0	1	+	50pct	50pct	0	3	绿	50pct	50pct	49
111616	17:49:08	1	1	4.0.9.0	2	7	colorjudgeblk	redsame	500	0	0	0	0	0	33	1	25	0	1	+	50pct	50pct	0	1	红	50pct	50pct	49
111616	17:49:08	1	1	4.0.9.0	2	8	colorjudgeblk	yellowsame	500	0	0	0	0	0	36	0	47	0	1	+	50pct	50pct	0	2	黄	50pct	50pct	49
111616	17:49:08	1	1	4.0.9.0	2	9	colorjudgeblk	yellowwithgreen	500	0	0	0	0	0	36	1	26	0	1	+	50pct	50pct	0	2	黄	50pct	50pct	49
111616	17:49:08	1	1	4.0.9.0	2	10	colorjudgeblk	yellowwithred	500	0	0	0	0	0	36	1	52	0	1	+	50pct	50pct	0	2	黄	50pct	50pct	49
111616	17:49:08	1	1	4.0.9.0	2	11	colorjudgeblk	redwithgreen	500	0	0	0	0	0	36	1	18	0	1	+	50pct	50pct	0	1	红	50pct	50pct	49
111616	17:49:08	1	1	4.0.9.0	2	12	colorjudgeblk	greenwithyellow	500	0	0	0	0	0	36	1	51	0	1	+	50pct	50pct	0	3	绿	50pct	50pct	49
111616	17:49:08	1	1	4.0.9.0	2	13	colorjudgeblk	greensame	500	0	0	0	0	0	Ctrl+'Q'	0	65	0	1	+	50pct	50pct	0	3	绿	50pct	50pct	49
111616	17:50:11	1	1	4.0.9.0	2	1	colorjudgeblk	greensame	500	0	0	0	0	0	33	1	42	0	1	+	50pct	50pct	0	3	绿	50pct	50pct	49
111616	17:50:11	1	1	4.0.9.0	2	2	colorjudgeblk	greenwithred	500	0	0	0	0	0	33	0	47	0	1	+	50pct	50pct	0	3	绿	50pct	50pct	49
111616	17:50:11	1	1	4.0.9.0	2	3	colorjudgeblk	redwithyellow	500	0	0	0	0	0	36	1	68	0	1	+	50pct	50pct	0	1	红	50pct	50pct	49
111616	17:50:11	1	1	4.0.9.0	2	4	colorjudgeblk	yellowwithgreen	500	0	0	0	0	0	36	1	35	0	1	+	50pct	50pct	0	2	黄	50pct	50pct	49
111616	17:50:11	1	1	4.0.9.0	2	5	colorjudgeblk	yellowsame	500	0	0	0	0	0	33	1	31	0	1	+	50pct	50pct	0	2	黄	50pct	50pct	49
111616	17:50:11	1	1	4.0.9.0	2	6	colorjudgeblk	greenwithred	500	0	0	0	0	0	36	1	31	0	1	+	50pct	50pct	0	3	绿	50pct	50pct	49
111616	17:50:11	1	1	4.0.9.0	2	7	colorjudgeblk	redwithgreen	500	0	0	0	0	0	36	1	49	0	1	+	50pct	50pct	0	1	红	50pct	50pct	49
111616	17:50:11	1	1	4.0.9.0	2	8	colorjudgeblk	yellowwithred	500	0	0	0	0	0	36	1	37	0	1	+	50pct	50pct	0	2	黄	50pct	50pct	49
111616	17:50:11	1	1	4.0.9.0	2	9	colorjudgeblk	greenwithyellow	500	0	0	0	0	0	Ctrl+'Q'	1	0	0	1	+	50pct	50pct	0	3	绿	50pct	50pct	49
111616	17:50:24	1	1	4.0.9.0	2	1	colorjudgeblk	redwithgreen	500	0	0	0	0	0	Ctrl+'Q'	1	3065	0	1	+	50pct	50pct	0	1	红	50pct	50pct	49
111616	17:53:50	1	1	4.0.9.0	2	1	colorjudgeblk	yellowwithred	500	0	0	0	0	0	36	1	3744	0	1	+	50pct	50pct	0	2	黄	50pct	50pct	49
111616	17:53:50	1	1	4.0.9.0	2	2	colorjudgeblk	greenwithred	500	0	0	0	0	0	36	1	655	0	1	+	50pct	50pct	0	3	绿	50pct	50pct	49
111616	17:53:50	1	1	4.0.9.0	2	3	colorjudgeblk	yellowwithgreen	500	0	0	0	0	0	36	1	366	0	1	+	50pct	50pct	0	2	黄	50pct	50pct	49
111616	17:53:50	1	1	4.0.9.0	2	4	colorjudgeblk	redwithyellow	500	0	0	0	0	0	36	1	506	0	1	+	50pct	50pct	0	1	红	50pct	50pct	49
111616	17:53:50	1	1	4.0.9.0	2	5	colorjudgeblk	redwithgreen	500	0	0	0	0	0	36	1	384	0	1	+	50pct	50pct	0	1	红	50pct	50pct	49
111616	17:53:50	1	1	4.0.9.0	2	6	colorjudgeblk	redsame	500	0	0	0	0	0	36	0	379	0	1	+	50pct	50pct	0	1	红	50pct	50pct	49
111616	17:53:50	1	1	4.0.9.0	2	7	colorjudgeblk	yellowwithred	500	0	0	0	0	0	36	1	510	0	1	+	50pct	50pct	0	2	黄	50pct	50pct	49
111616	17:53:50	1	1	4.0.9.0	2	8	colorjudgeblk	yellowwithgreen	500	0	0	0	0	0	36	1	396	0	1	+	50pct	50pct	0	2	黄	50pct	50pct	49
111616	17:53:50	1	1	4.0.9.0	2	9	colorjudgeblk	greenwithyellow	500	0	0	0	0	0	36	1	638	0	1	+	50pct	50pct	0	3	绿	50pct	50pct	49
111616	17:53:50	1	1	4.0.9.0	2	10	colorjudgeblk	greenwithred	500	0	0	0	0	0	Ctrl+'Q'	1	2542	0	1	+	50pct	50pct	0	3	绿	50pct	50pct	49
111616	17:54:56	1	1	4.0.9.0	2	1	colorjudgeblk	yellowsame	500	0	0	0	0	0	33	1	1367	0	1	+	50pct	50pct	0	2	黄	50pct	50pct	49
111616	17:54:56	1	1	4.0.9.0	2	2	colorjudgeblk	greensame	500	0	0	0	0	0	33	1	761	0	1	+	50pct	50pct	0	3	绿	50pct	50pct	49
111616	17:54:56	1	1	4.0.9.0	2	3	colorjudgeblk	yellowwithred	500	0	0	0	0	0	Ctrl+'Q'	1	676	0	1	+	50pct	50pct	0	2	黄	50pct	50pct	49
111616	18:06:35	1	1	4.0.9.0	2	1	colorjudgeblk	yellowwithred	500	0	0	0	0	0	33	0	2733	0	1	+	50pct	50pct	0	2	黄	50pct	50pct	199
111616	18:06:35	1	1	4.0.9.0	2	2	colorjudgeblk	greenwithyellow	500	0	0	0	0	0	36	1	1711	0	1	+	50pct	50pct	0	3	绿	50pct	50pct	199
111616	18:06:35	1	1	4.0.9.0	2	3	colorjudgeblk	yellowwithgreen	500	0	0	0	0	0	36	1	1280	0	1	+	50pct	50pct	0	2	黄	50pct	50pct	199
111616	18:06:35	1	1	4.0.9.0	2	4	colorjudgeblk	yellowsame	500	0	0	0	0	0	36	0	1412	0	1	+	50pct	50pct	180	2	黄	50pct	50pct	199
111616	18:06:35	1	1	4.0.9.0	2	5	colorjudgeblk	redwithyellow	500	0	0	0	0	0	33	0	930	0	1	+	50pct	50pct	0	1	红	50pct	50pct	199
111616	18:06:35	1	1	4.0.9.0	2	6	colorjudgeblk	redwithgreen	500	0	0	0	0	0	36	1	1436	0	1	+	50pct	50pct	0	1	红	50pct	50pct	199
111616	18:06:35	1	1	4.0.9.0	2	7	colorjudgeblk	redsame	500	0	0	0	0	0	33	1	823	0	1	+	50pct	50pct	0	1	红	50pct	50pct	199
111616	18:06:35	1	1	4.0.9.0	2	8	colorjudgeblk	yellowsame	500	0	0	0	0	0	33	1	1165	0	1	+	50pct	50pct	0	2	黄	50pct	50pct	199
111616	18:06:35	1	1	4.0.9.0	2	9	colorjudgeblk	redwithgreen	500	0	0	0	0	0	33	0	716	0	1	+	50pct	50pct	0	1	红	50pct	50pct	199
111616	18:06:35	1	1	4.0.9.0	2	10	colorjudgeblk	greenwithyellow	500	0	0	0	0	0	33	0	634	0	1	+	50pct	50pct	0	3	绿	50pct	50pct	199
111616	18:06:35	1	1	4.0.9.0	2	11	colorjudgeblk	greenwithred	500	0	0	0	0	0	36	1	892	0	1	+	50pct	50pct	0	3	绿	50pct	50pct	199
111616	18:06:35	1	1	4.0.9.0	2	12	colorjudgeblk	yellowwithgreen	500	0	0	0	0	0	36	1	2204	0	1	+	50pct	50pct	0	2	黄	50pct	50pct	199
111616	18:06:35	1	1	4.0.9.0	2	13	colorjudgeblk	redsame	500	0	0	0	0	0	36	0	1749	0	1	+	50pct	50pct	0	1	红	50pct	50pct	199
111616	18:06:35	1	1	4.0.9.0	2	14	colorjudgeblk	greensame	500	0	0	0	0	0	Ctrl+'Q'	1	798	0	1	+	50pct	50pct	0	3	绿	50pct	50pct	199
111616	18:14:38	1	1	4.0.9.0	2	1	colorjudgeblk	greenwithyellow	500	0	0	0	0	0	Ctrl+'Q'	1	5786	0	1	+	50pct	50pct	0	3	绿	50pct	50pct	199
111616	18:18:39	1	1	4.0.9.0	2	1	colorjudgeblk	greensamet	500	0	0	0	0	0	Ctrl+'Q'	1	2247	0	1	+	50pct	50pct	0	3	绿	50pct	50pct	199
111616	18:27:49	1	1	4.0.9.0	2	1	colorjudgeblk	yellowwithredt	500	0	0	0	0	0	Ctrl+'Q'	1	1754	0	1	+	50pct	50pct	0	2	黄	50pct	50pct	199
111616	18:29:32	1	1	4.0.9.0	2	1	colorjudgeblk	greenwithredt	500	0	0	0	0	0	Ctrl+'Q'	1	1968	0	1	+	50pct	50pct	0	3	绿	50pct	50pct	199
111616	18:38:44	1	1	4.0.9.0	2	1	colorjudgeblk	redwithgreent	500	0	0	0	0	0	Ctrl+'Q'	1	0	0	1	+	50pct	50pct	0	1	红	50pct	50pct	199
111616	18:50:43	1	1	4.0.9.0	2	1	colorjudgeblk	yellowsamet	500	0	0	0	0	0	33	1	4021	0	1	+	50pct	50pct	0	2	黄	50pct	50pct	199
111616	18:50:43	1	1	4.0.9.0	2	2	colorjudgeblk	yellowwithredt	500	0	0	0	0	0	36	1	325	0	1	+	50pct	50pct	0	2	黄	50pct	50pct	199
111616	18:50:43	1	1	4.0.9.0	2	3	colorjudgeblk	greenwithyellowt	500	0	0	0	0	0	Ctrl+'Q'	1	1967	0	1	+	50pct	50pct	0	3	绿	50pct	50pct	199
111616	18:53:33	1	1	4.0.9.0	2	1	colorjudgeblk	yellowwithgreent	500	0	0	0	0	0	Ctrl+'Q'	1	3463	0	1	+	50pct	50pct	0	2	黄	50pct	50pct	199
111616	18:54:07	1	1	4.0.9.0	2	1	colorjudgeblk	greenwithredt	500	0	0	0	0	0	Ctrl+'Q'	1	2794	0	1	+	50pct	50pct	0	3	绿	50pct	50pct	199
111616	18:54:16	1	1	4.0.9.0	2	1	colorjudgeblk	redwithgreent	500	0	0	0	0	0	Ctrl+'Q'	1	5033	0	1	+	50pct	50pct	0	1	红	50pct	50pct	199
111616	18:54:45	1	1	4.0.9.0	2	1	colorjudgeblk	yellowwithredt	500	0	0	0	0	0	33	0	1919	0	1	+	50pct	50pct	0	2	黄	50pct	50pct	199
111616	18:54:45	1	1	4.0.9.0	2	2	colorjudgeblk	redsamet	500	0	0	0	0	0	33	1	531	0	1	+	50pct	50pct	0	1	红	50pct	50pct	199
111616	18:54:45	1	1	4.0.9.0	2	3	colorjudgeblk	redwithgreent	500	0	0	0	0	0	33	0	564	0	1	+	50pct	50pct	0	1	红	50pct	50pct	199
111616	18:54:45	1	1	4.0.9.0	2	4	colorjudgeblk	greenwithredt	500	0	0	0	0	0	Ctrl+'Q'	1	534	0	1	+	50pct	50pct	0	3	绿	50pct	50pct	199
